Folder: ipython_ophyd

File: scan_466_FeXANES
# XDI/1.0 MX/2.0
# Beamline.name: xf05id
# Facility.name: NSLS-II
# Facility.ring_current:149.748
# Scan.start.uid: 7d88fad7-2ac3-4b59-b443-8a6f184ed1e0
# Scan.start.time: 1.45633e+09
# Scan.start.ctime: Wed Feb 24 11:52:30 2016
# Mono.name: Si 111
# sample.name: Fe foil
# Column.1: energy_energy
# Column.2: saturn_mca_rois_roi0_net_count
# Column.3: saturn_mca_rois_roi0_count
# Column.4: current_preamp_ch0
# Column.5: current_preamp_ch1
# energy_energy	saturn_mca_rois_roi0_net_count	saturn_mca_rois_roi0_count	current_preamp_ch0	current_preamp_ch1	scaled_current_preamp_ch0	scaled_current_preamp_ch1
7.092	-2747.0	738.0	1.1496e-07	3.4852e-08	2.156	11.8148
7.093	-2595.0	809.0	1.1496e-07	3.4852e-08	2.156	11.8148
7.094	-2534.0	678.0	1.1537e-07	3.4581e-08	2.197	11.8419
7.095	-3023.0	764.0	1.154e-07	3.4412e-08	2.2	11.8588
7.096	-2469.0	703.0	1.154e-07	3.4412e-08	2.2	11.8588
7.097	-2677.0	808.0	1.1538e-07	3.4775e-08	2.198	11.8225
7.098	-2722.0	702.0	1.1536e-07	3.5053e-08	2.196	11.7947
7.099	-2773.0	855.0	1.1539e-07	3.5002e-08	2.199	11.7998
7.1	-2608.0	806.0	1.1564e-07	3.5002e-08	2.224	11.7998
7.101	-2780.0	805.0	1.1575e-07	3.4955e-08	2.235	11.8045
7.102	-2611.0	722.0	1.1603e-07	3.5056e-08	2.263	11.7944
7.103	-2645.0	740.0	1.163e-07	3.4845e-08	2.29	11.8155
7.104	-2446.0	827.0	1.1638e-07	3.5123e-08	2.298	11.7877
7.105	-2421.0	832.0	1.1667e-07	3.5222e-08	2.327	11.7778
7.106	-2604.0	810.0	1.1667e-07	3.5222e-08	2.327	11.7778
7.107	-2396.0	816.0	1.1715e-07	3.5122e-08	2.375	11.7878
7.108	-2103.0	847.0	1.1786e-07	3.5269e-08	2.446	11.7731
7.109	-1940.0	918.0	1.1862e-07	3.5289e-08	2.522	11.7711
7.11	-2225.0	1068.0	1.2018e-07	3.5456e-08	2.678	11.7544
7.111	-1632.0	1630.0	1.2371e-07	3.5364e-08	3.031	11.7636
7.112	-1513.0	2233.0	1.3327e-07	3.5477e-08	3.987	11.7523
7.113	-643.0	2477.0	1.4608e-07	3.5281e-08	5.268	11.7719
7.114	-13.0	2753.0	1.5334e-07	3.5443e-08	5.994	11.7557
7.115	-550.0	3005.0	1.5768e-07	3.5429e-08	6.428	11.7571
7.116	-598.0	3028.0	1.6124e-07	3.5271e-08	6.784	11.7729
7.117	-125.0	3017.0	1.6124e-07	3.5271e-08	6.784	11.7729
7.118	-256.0	3138.0	1.6252e-07	3.55e-08	6.912	11.75
7.119	289.0	3562.0	1.6613e-07	3.55e-08	7.273	11.75
7.12	678.0	3660.0	1.7097e-07	3.5157e-08	7.757	11.7843
7.121	611.0	3834.0	1.7515e-07	3.5264e-08	8.175	11.7736
7.122	782.0	4196.0	1.8111e-07	3.5103e-08	8.771	11.7897
7.123	887.0	4069.0	1.8111e-07	3.5103e-08	8.771	11.7897
7.124	919.0	4292.0	1.8224e-07	3.513e-08	8.884	11.787
7.125	1399.0	4298.0	1.8327e-07	3.5006e-08	8.987	11.7994
7.126	1095.0	4388.0	1.8478e-07	3.4879e-08	9.138	11.8121
7.127	1064.0	4548.0	1.8419e-07	3.5035e-08	9.079	11.7965
7.128	778.0	4556.0	1.8527e-07	3.4962e-08	9.187	11.8038
7.129	1119.0	4564.0	1.8703e-07	3.5028e-08	9.363	11.7972
7.13	1657.0	4578.0	1.8753e-07	3.5018e-08	9.413	11.7982
7.131	923.0	4730.0	1.8813e-07	3.4926e-08	9.473	11.8074
7.132	1374.0	4626.0	1.8744e-07	3.5156e-08	9.404	11.7844
7.133	1781.0	4643.0	1.8744e-07	3.5156e-08	9.404	11.7844
7.134	1438.0	4367.0	1.8601e-07	3.5315e-08	9.261	11.7685
7.135	1466.0	4557.0	1.8694e-07	3.4843e-08	9.354	11.8157
7.136	1968.0	4544.0	1.8629e-07	3.4999e-08	9.289	11.8001
7.137	1588.0	4488.0	1.8619e-07	3.517e-08	9.279	11.783
7.138	1451.0	4380.0	1.8633e-07	3.4894e-08	9.293	11.8106
7.139	1613.0	4512.0	1.8576e-07	3.5101e-08	9.236	11.7899
7.14	1309.0	4521.0	1.8719e-07	3.4527e-08	9.379	11.8473
7.141	1462.0	4464.0	1.8747e-07	3.4713e-08	9.407	11.8287
7.142	1741.0	4521.0	1.877e-07	3.4786e-08	9.43	11.8214
7.143	1683.0	4571.0	1.8765e-07	3.4751e-08	9.425	11.8249
7.144	1211.0	4373.0	1.8754e-07	3.4588e-08	9.414	11.8412
7.145	1695.0	4483.0	1.8705e-07	3.4927e-08	9.365	11.8073
7.146	1572.0	4652.0	1.8705e-07	3.4927e-08	9.365	11.8073
7.147	1580.0	4550.0	1.8694e-07	3.5098e-08	9.354	11.7902
7.148	1603.0	4401.0	1.884e-07	3.4777e-08	9.5	11.8223
7.149	2096.0	4621.0	1.8869e-07	3.4779e-08	9.529	11.8221
7.15	1302.0	4504.0	1.888e-07	3.4648e-08	9.54	11.8352
7.151	1521.0	4601.0	1.888e-07	3.4648e-08	9.54	11.8352
7.152	1730.0	4621.0	1.8954e-07	3.4541e-08	9.614	11.8459
7.153	1898.0	4565.0	1.8942e-07	3.4726e-08	9.602	11.8274
7.154	2091.0	4596.0	1.8909e-07	3.4606e-08	9.569	11.8394
7.155	2050.0	4535.0	1.8875e-07	3.4559e-08	9.535	11.8441
7.156	1918.0	4708.0	1.8875e-07	3.4559e-08	9.535	11.8441
7.157	1895.0	4552.0	1.897e-07	3.4474e-08	9.63	11.8526
7.158	1962.0	4558.0	1.8942e-07	3.4381e-08	9.602	11.8619
7.159	1560.0	4711.0	1.8946e-07	3.4745e-08	9.606	11.8255
7.16	2076.0	4736.0	1.8946e-07	3.4745e-08	9.606	11.8255
7.161	2566.0	4545.0	1.897e-07	3.4455e-08	9.63	11.8545
7.162	2149.0	4634.0	1.8943e-07	3.4734e-08	9.603	11.8266
7.163	1609.0	4618.0	1.8893e-07	3.4561e-08	9.553	11.8439
7.164	1868.0	4555.0	1.8904e-07	3.4545e-08	9.564	11.8455
7.165	1936.0	4573.0	1.8923e-07	3.441e-08	9.583	11.859
7.166	1938.0	4493.0	1.8923e-07	3.441e-08	9.583	11.859
7.167	2006.0	4571.0	1.8908e-07	3.4252e-08	9.568	11.8748
7.168	1864.0	4476.0	1.8901e-07	3.4303e-08	9.561	11.8697
7.169	1919.0	4475.0	1.8898e-07	3.4181e-08	9.558	11.8819
7.17	2297.0	4601.0	1.8851e-07	3.4255e-08	9.511	11.8745
7.171	2388.0	4531.0	1.8851e-07	3.4255e-08	9.511	11.8745
7.172	2086.0	4429.0	1.8886e-07	3.4319e-08	9.546	11.8681
7.173	2042.0	4466.0	1.879e-07	3.4469e-08	9.45	11.8531
7.174	1929.0	4464.0	1.8842e-07	3.4515e-08	9.502	11.8485
7.175	2270.0	4533.0	1.8811e-07	3.4459e-08	9.471	11.8541
7.176	1862.0	4296.0	1.8811e-07	3.4459e-08	9.471	11.8541
7.177	1940.0	4435.0	1.8772e-07	3.454e-08	9.432	11.846
7.178	1988.0	4432.0	1.8721e-07	3.4709e-08	9.381	11.8291
7.179	2229.0	4400.0	1.873e-07	3.4493e-08	9.39	11.8507
7.18	2135.0	4317.0	1.8722e-07	3.4571e-08	9.382	11.8429
7.181	2002.0	4497.0	1.8748e-07	3.4652e-08	9.408	11.8348
7.182	2049.0	4484.0	1.873e-07	3.4352e-08	9.39	11.8648
7.183	2107.0	4340.0	1.871e-07	3.4687e-08	9.37	11.8313
7.184	2381.0	4511.0	1.8737e-07	3.448e-08	9.397	11.852
7.185	2129.0	4473.0	1.8754e-07	3.452e-08	9.414	11.848
7.186	2015.0	4349.0	1.8754e-07	3.452e-08	9.414	11.848
7.187	2281.0	4474.0	1.8807e-07	3.471e-08	9.467	11.829
7.188	2280.0	4321.0	1.883e-07	3.4665e-08	9.49	11.8335
7.189	2442.0	4412.0	1.8864e-07	3.4722e-08	9.524	11.8278
7.19	2302.0	4545.0	1.8844e-07	3.4781e-08	9.504	11.8219
7.191	2463.0	4483.0	1.8878e-07	3.4806e-08	9.538	11.8194
7.192	2778.0	4426.0	1.8849e-07	3.4807e-08	9.509	11.8193